# Au_CRC taken from Lumerical-Ansys database
# Reference: J. Rumble, ed., CRC Handbook of Chemistry and Physics, 103rd ed. (CRC, 2022).
# lambda Re(n) Im(n)
12407.00549    8.16999   82.83000 
6203.49033    2.13000   41.73005 
4135.66022    0.99000   27.81999 
3101.75292    0.59000   20.83000 
2481.40110    0.39000   16.61000 
2067.83356    0.28000   13.78000 
1772.42834    0.22000   11.75000 
1550.87452    0.18000   10.21001 
1378.55494    0.15000    9.01000 
1240.70055    0.13000    8.03000 
1033.91678    0.10000    6.54000 
 886.21544    0.08000    5.44000 
 775.43920    0.08000    4.56000 
 689.27594    0.09000    3.82000 
 620.34903    0.13000    3.16000 
 590.80888    0.18000    2.84000 
 563.95418    0.24000    2.54000 
 516.95839    0.50000    1.86000 
 496.28022    0.82000    1.59000 
 477.19267    1.24000    1.54000 
 459.51899    1.43000    1.72000 
 443.10772    1.46000    1.77000 
 427.82825    1.50000    1.79000 
 413.56602    1.54000    1.80000 
 400.22531    1.54000    1.81000 
 387.71839    1.54000    1.80000 
 375.96945    1.55000    1.78000 
 364.91163    1.56000    1.76000 
 354.48567    1.58000    1.73000 
 344.63893    1.62000    1.73000 
 335.32444    1.64000    1.75000 
 326.50018    1.63000    1.79000 
 318.12844    1.59000    1.81000 
 310.17529    1.55000    1.81000 
 302.61010    1.51000    1.79000 
 295.40444    1.48000    1.78000 
 288.53464    1.45000    1.77000 
 281.97709    1.41000    1.76000 
 275.71099    1.35000    1.74000 
 269.71732    1.30000    1.69000 
 263.97871    1.27000    1.64000 
 258.47919    1.25000    1.59000 
 253.20415    1.23000    1.54000 
 248.14011    1.22000    1.49000 
 238.59633    1.21000    1.40000 
 229.75907    1.21000    1.33000 
 221.55346    1.21000    1.27000 
 213.91375    1.21000    1.20000 
 206.78336    1.22000    1.14000 
 200.11298    1.24000    1.09000 
 193.85950    1.25000    1.05000 
 187.98473    1.27000    1.01000 
 182.45581    1.30000    0.97000 
 177.24283    1.34000    0.95000 
 172.31946    1.36000    0.95000 
 167.66222    1.38000    0.96000 
 163.25009    1.38000    0.98000 
 159.06402    1.35000    0.99000 
 155.08745    1.31000    0.96000 
 151.30486    1.30000    0.92000 
 147.70240    1.30000    0.89000 
 144.26749    1.31000    0.88000 
 140.98871    1.31000    0.86000 
 137.85549    1.30000    0.83000 
 134.85866    1.31000    0.81000 
 131.98935    1.33000    0.78000 
 129.23960    1.36000    0.78000 
 126.60208    1.37000    0.79000 
 124.07005    1.37000    0.80000 
 121.63781    1.36000    0.80000 
 119.29817    1.35000    0.80000 
 117.04683    1.34000    0.79000 
 114.87996    1.34000    0.77000 
 112.79084    1.34000    0.76000 
 110.77634    1.34000    0.74000 
 108.83349    1.35000    0.73000 
 106.95669    1.36000    0.72000 
 105.14442    1.38000    0.71000 
 103.39168    1.39000    0.71000 
 100.05665    1.44000    0.73000 
  96.93005    1.45000    0.79000 
  93.99222    1.42000    0.84000 
  91.22791    1.37000    0.86000 
  88.62154    1.33000    0.86000 
  86.15997    1.29000    0.86000 
  83.83088    1.26000    0.84000 
  81.62494    1.24000    0.83000 
  79.53211    1.22000    0.81000 
  77.54392    1.21000    0.79000 
  75.65225    1.20000    0.78000 
  73.85111    1.19000    0.76000 
  72.13374    1.19000    0.75000 
  70.49443    1.19000    0.74000 
  68.92759    1.19000    0.74000 
  67.42926    1.19000    0.73000 
  65.99468    1.20000    0.74000 
  64.61987    1.21000    0.76000 
  63.30117    1.21000    0.80000 
  62.03490    1.18000    0.83000 
  60.81860    1.14000    0.85000 
  59.64908    1.10000    0.87000 
  58.52369    1.05000    0.88000 
  57.43971    1.00000    0.88000 
  56.39542    0.94000    0.86000 
  55.38842    0.89000    0.83000 
  54.41674    0.85000    0.79000 
  53.47835    0.82000    0.75000 
  52.57199    0.80000    0.70000 
  51.69584    0.80000    0.66000 
  50.84841    0.80000    0.62000 
  50.02833    0.80000    0.58000 
  49.23407    0.82000    0.56000 
  48.46484    0.83000    0.54000 
  47.71927    0.84000    0.52000 
  46.99629    0.85000    0.51000 
  46.29472    0.85000    0.50000 
  45.61395    0.86000    0.49000 
  44.95292    0.86000    0.49000 
  44.31077    0.87000    0.48000 
  43.68656    0.88000    0.48000 
  43.07984    0.88000    0.48000 
  42.48974    0.88000    0.48000 
  41.91558    0.87000    0.48000 
  41.35660    0.86000    0.48000 
